; methane opacity data from Karkoschka (1998)
;    wavelength    opacity
;      [nm]      [cm**2/molec]
      300.400      0.00000
      300.800      0.00000
      301.200      0.00000
      301.600      0.00000
      302.000      0.00000
      302.400      0.00000
      302.800      0.00000
      303.200      0.00000
      303.600      0.00000
      304.000      0.00000
      304.400      0.00000
      304.800      0.00000
      305.200      0.00000
      305.600      0.00000
      306.000      0.00000
      306.400      0.00000
      306.800      0.00000
      307.200      0.00000
      307.600      0.00000
      308.000      0.00000
      308.400      0.00000
      308.800      0.00000
      309.200      0.00000
      309.600      0.00000
      310.000      0.00000
      310.400      0.00000
      310.800      0.00000
      311.200      0.00000
      311.600      0.00000
      312.000      0.00000
      312.400      0.00000
      312.800      0.00000
      313.200      0.00000
      313.600      0.00000
      314.000      0.00000
      314.400      0.00000
      314.800      0.00000
      315.200      0.00000
      315.600      0.00000
      316.000      0.00000
      316.400      0.00000
      316.800      0.00000
      317.200      0.00000
      317.600      0.00000
      318.000      0.00000
      318.400      0.00000
      318.800      0.00000
      319.200      0.00000
      319.600      0.00000
      320.000      0.00000
      320.400      0.00000
      320.800      0.00000
      321.200      0.00000
      321.600      0.00000
      322.000      0.00000
      322.400      0.00000
      322.800      0.00000
      323.200      0.00000
      323.600      0.00000
      324.000      0.00000
      324.400      0.00000
      324.800      0.00000
      325.200      0.00000
      325.600      0.00000
      326.000      0.00000
      326.400      0.00000
      326.800      0.00000
      327.200      0.00000
      327.600      0.00000
      328.000      0.00000
      328.400      0.00000
      328.800      0.00000
      329.200      0.00000
      329.600      0.00000
      330.000      0.00000
      330.400      0.00000
      330.800      0.00000
      331.200      0.00000
      331.600      0.00000
      332.000      0.00000
      332.400      0.00000
      332.800      0.00000
      333.200      0.00000
      333.600      0.00000
      334.000      0.00000
      334.400      0.00000
      334.800      0.00000
      335.200      0.00000
      335.600      0.00000
      336.000      0.00000
      336.400      0.00000
      336.800      0.00000
      337.200      0.00000
      337.600      0.00000
      338.000      0.00000
      338.400      0.00000
      338.800      0.00000
      339.200      0.00000
      339.600      0.00000
      340.000      0.00000
      340.400      0.00000
      340.800      0.00000
      341.200      0.00000
      341.600      0.00000
      342.000      0.00000
      342.400      0.00000
      342.800      0.00000
      343.200      0.00000
      343.600      0.00000
      344.000      0.00000
      344.400      0.00000
      344.800      0.00000
      345.200      0.00000
      345.600      0.00000
      346.000      0.00000
      346.400      0.00000
      346.800      0.00000
      347.200      0.00000
      347.600      0.00000
      348.000      0.00000
      348.400      0.00000
      348.800      0.00000
      349.200      0.00000
      349.600      0.00000
      350.000      0.00000
      350.400      0.00000
      350.800      0.00000
      351.200      0.00000
      351.600      0.00000
      352.000      0.00000
      352.400      0.00000
      352.800      0.00000
      353.200      0.00000
      353.600      0.00000
      354.000      0.00000
      354.400      0.00000
      354.800      0.00000
      355.200      0.00000
      355.600      0.00000
      356.000      0.00000
      356.400      0.00000
      356.800      0.00000
      357.200      0.00000
      357.600      0.00000
      358.000      0.00000
      358.400      0.00000
      358.800      0.00000
      359.200      0.00000
      359.600      0.00000
      360.000      0.00000
      360.400      0.00000
      360.800      0.00000
      361.200      0.00000
      361.600      0.00000
      362.000      0.00000
      362.400      0.00000
      362.800      0.00000
      363.200      0.00000
      363.600      0.00000
      364.000      0.00000
      364.400      0.00000
      364.800      0.00000
      365.200      0.00000
      365.600      0.00000
      366.000      0.00000
      366.400      0.00000
      366.800      0.00000
      367.200      0.00000
      367.600      0.00000
      368.000      0.00000
      368.400      0.00000
      368.800      0.00000
      369.200      0.00000
      369.600      0.00000
      370.000      0.00000
      370.400      0.00000
      370.800      0.00000
      371.200      0.00000
      371.600      0.00000
      372.000      0.00000
      372.400      0.00000
      372.800      0.00000
      373.200      0.00000
      373.600      0.00000
      374.000      0.00000
      374.400      0.00000
      374.800      0.00000
      375.200      0.00000
      375.600      0.00000
      376.000      0.00000
      376.400      0.00000
      376.800      0.00000
      377.200      0.00000
      377.600      0.00000
      378.000      0.00000
      378.400      0.00000
      378.800      0.00000
      379.200      0.00000
      379.600      0.00000
      380.000      0.00000
      380.400      0.00000
      380.800      0.00000
      381.200      0.00000
      381.600      0.00000
      382.000      0.00000
      382.400      0.00000
      382.800      0.00000
      383.200      0.00000
      383.600      0.00000
      384.000      0.00000
      384.400      0.00000
      384.800      0.00000
      385.200      0.00000
      385.600      0.00000
      386.000      0.00000
      386.400      0.00000
      386.800      0.00000
      387.200      0.00000
      387.600      0.00000
      388.000      0.00000
      388.400      0.00000
      388.800      0.00000
      389.200      0.00000
      389.600      0.00000
      390.000      0.00000
      390.400      0.00000
      390.800      0.00000
      391.200      0.00000
      391.600      0.00000
      392.000      0.00000
      392.400      0.00000
      392.800      0.00000
      393.200      0.00000
      393.600      0.00000
      394.000      0.00000
      394.400      0.00000
      394.800      0.00000
      395.200      0.00000
      395.600      0.00000
      396.000      0.00000
      396.400      0.00000
      396.800      0.00000
      397.200      0.00000
      397.600      0.00000
      398.000      0.00000
      398.400      0.00000
      398.800      0.00000
      399.200      0.00000
      399.600      0.00000
      400.000      0.00000
      400.400      0.00000
      400.800      0.00000
      401.200      0.00000
      401.600      0.00000
      402.000      0.00000
      402.400      0.00000
      402.800      0.00000
      403.200      0.00000
      403.600      0.00000
      404.000      0.00000
      404.400      0.00000
      404.800      0.00000
      405.200      0.00000
      405.600  1.11657e-28
      406.000  2.60533e-28
      406.400  3.34971e-28
      406.800  2.60533e-28
      407.200  1.86095e-28
      407.600  7.44380e-29
      408.000  3.72190e-29
      408.400      0.00000
      408.800      0.00000
      409.200      0.00000
      409.600      0.00000
      410.000  3.72190e-29
      410.400  7.44380e-29
      410.800  3.72190e-29
      411.200      0.00000
      411.600      0.00000
      412.000      0.00000
      412.400      0.00000
      412.800      0.00000
      413.200      0.00000
      413.600      0.00000
      414.000      0.00000
      414.400      0.00000
      414.800      0.00000
      415.200      0.00000
      415.600      0.00000
      416.000      0.00000
      416.400      0.00000
      416.800      0.00000
      417.200      0.00000
      417.600      0.00000
      418.000      0.00000
      418.400      0.00000
      418.800  7.44380e-29
      419.200  1.86095e-28
      419.600  2.60533e-28
      420.000  3.34971e-28
      420.400  2.97752e-28
      420.800  2.23314e-28
      421.200  1.48876e-28
      421.600  7.44380e-29
      422.000      0.00000
      422.400      0.00000
      422.800      0.00000
      423.200      0.00000
      423.600      0.00000
      424.000      0.00000
      424.400      0.00000
      424.800      0.00000
      425.200      0.00000
      425.600      0.00000
      426.000      0.00000
      426.400      0.00000
      426.800      0.00000
      427.200      0.00000
      427.600      0.00000
      428.000      0.00000
      428.400      0.00000
      428.800      0.00000
      429.200      0.00000
      429.600  3.72190e-29
      430.000  3.72190e-29
      430.400  3.72190e-29
      430.800      0.00000
      431.200  3.72190e-29
      431.600  7.44380e-29
      432.000  7.44380e-29
      432.400  1.11657e-28
      432.800  1.48876e-28
      433.200  1.86095e-28
      433.600  2.60533e-28
      434.000  2.97752e-28
      434.400  3.34971e-28
      434.800  2.97752e-28
      435.200  2.97752e-28
      435.600  3.34971e-28
      436.000  3.72190e-28
      436.400  4.83847e-28
      436.800  5.21066e-28
      437.200  5.21066e-28
      437.600  4.46628e-28
      438.000  3.34971e-28
      438.400  2.60533e-28
      438.800  2.23314e-28
      439.200  3.72190e-28
      439.600  7.07161e-28
      440.000  1.33988e-27
      440.400  2.04704e-27
      440.800  2.53089e-27
      441.200  2.64255e-27
      441.600  2.41923e-27
      442.000  1.97261e-27
      442.400  1.45154e-27
      442.800  9.67694e-28
      443.200  5.95504e-28
      443.600  3.72190e-28
      444.000  2.23314e-28
      444.400  1.11657e-28
      444.800      0.00000
      445.200      0.00000
      445.600      0.00000
      446.000      0.00000
      446.400      0.00000
      446.800      0.00000
      447.200      0.00000
      447.600      0.00000
      448.000      0.00000
      448.400      0.00000
      448.800  3.72190e-29
      449.200      0.00000
      449.600      0.00000
      450.000  3.72190e-29
      450.400  3.72190e-29
      450.800  7.44380e-29
      451.200  7.44380e-29
      451.600  7.44380e-29
      452.000  1.11657e-28
      452.400  1.11657e-28
      452.800  1.11657e-28
      453.200  1.86095e-28
      453.600  2.23314e-28
      454.000  2.60533e-28
      454.400  2.97752e-28
      454.800  3.34971e-28
      455.200  3.72190e-28
      455.600  3.72190e-28
      456.000  4.09409e-28
      456.400  4.83847e-28
      456.800  5.21066e-28
      457.200  5.95504e-28
      457.600  7.07161e-28
      458.000  8.18818e-28
      458.400  1.07935e-27
      458.800  1.33988e-27
      459.200  1.56320e-27
      459.600  1.74929e-27
      460.000  1.60042e-27
      460.400  1.15379e-27
      460.800  7.81599e-28
      461.200  5.21066e-28
      461.600  3.34971e-28
      462.000  1.86095e-28
      462.400  1.11657e-28
      462.800  7.44380e-29
      463.200  1.11657e-28
      463.600  1.11657e-28
      464.000  1.11657e-28
      464.400  1.11657e-28
      464.800  1.48876e-28
      465.200  2.23314e-28
      465.600  2.60533e-28
      466.000  2.97752e-28
      466.400  2.60533e-28
      466.800  2.23314e-28
      467.200  1.86095e-28
      467.600  1.48876e-28
      468.000  1.48876e-28
      468.400  1.11657e-28
      468.800  7.44380e-29
      469.200  7.44380e-29
      469.600  7.44380e-29
      470.000  1.11657e-28
      470.400  1.11657e-28
      470.800  7.44380e-29
      471.200  1.11657e-28
      471.600  1.11657e-28
      472.000  1.48876e-28
      472.400  1.48876e-28
      472.800  1.48876e-28
      473.200  1.86095e-28
      473.600  1.48876e-28
      474.000  1.48876e-28
      474.400  1.86095e-28
      474.800  2.60533e-28
      475.200  2.97752e-28
      475.600  3.72190e-28
      476.000  3.72190e-28
      476.400  4.46628e-28
      476.800  5.21066e-28
      477.200  6.32723e-28
      477.600  7.81599e-28
      478.000  8.93256e-28
      478.400  1.00491e-27
      478.800  1.19101e-27
      479.200  1.41432e-27
      479.600  1.71207e-27
      480.000  1.97261e-27
      480.400  2.27036e-27
      480.800  2.53089e-27
      481.200  2.82864e-27
      481.600  3.16362e-27
      482.000  3.53580e-27
      482.400  3.64746e-27
      482.800  3.83356e-27
      483.200  4.05687e-27
      483.600  4.50350e-27
      484.000  5.43397e-27
      484.400  7.77877e-27
      484.800  1.10913e-26
      485.200  1.32500e-26
      485.600  1.39571e-26
      486.000  1.44410e-26
      486.400  1.13518e-26
      486.800  7.59268e-27
      487.200  5.02457e-27
      487.600  3.57302e-27
      488.000  2.34480e-27
      488.400  1.41432e-27
      488.800  8.56037e-28
      489.200  5.21066e-28
      489.600  3.34971e-28
      490.000  2.60533e-28
      490.400  2.23314e-28
      490.800  1.86095e-28
      491.200  2.23314e-28
      491.600  1.86095e-28
      492.000  1.48876e-28
      492.400  1.86095e-28
      492.800  1.48876e-28
      493.200  1.48876e-28
      493.600  1.11657e-28
      494.000  1.11657e-28
      494.400  1.11657e-28
      494.800  1.11657e-28
      495.200  1.11657e-28
      495.600  1.11657e-28
      496.000  1.48876e-28
      496.400  1.48876e-28
      496.800  1.86095e-28
      497.200  2.23314e-28
      497.600  2.23314e-28
      498.000  2.60533e-28
      498.400  3.34971e-28
      498.800  4.09409e-28
      499.200  4.46628e-28
      499.600  4.83847e-28
      500.000  5.21066e-28
      500.400  5.95504e-28
      500.800  6.69942e-28
      501.200  7.07161e-28
      501.600  7.81599e-28
      502.000  9.30475e-28
      502.400  1.04213e-27
      502.800  1.15379e-27
      503.200  1.33988e-27
      503.600  1.48876e-27
      504.000  1.63764e-27
      504.400  1.74929e-27
      504.800  1.89817e-27
      505.200  2.08426e-27
      505.600  2.38202e-27
      506.000  2.53089e-27
      506.400  2.79142e-27
      506.800  3.08918e-27
      507.200  3.42415e-27
      507.600  3.87078e-27
      508.000  4.35462e-27
      508.400  4.80125e-27
      508.800  5.21066e-27
      509.200  5.47119e-27
      509.600  5.69451e-27
      510.000  5.84338e-27
      510.400  6.02948e-27
      510.800  5.50841e-27
      511.200  4.87569e-27
      511.600  4.01965e-27
      512.000  3.16362e-27
      512.400  2.45645e-27
      512.800  1.86095e-27
      513.200  1.33988e-27
      513.600  9.67694e-28
      514.000  7.07161e-28
      514.400  5.21066e-28
      514.800  4.46628e-28
      515.200  3.72190e-28
      515.600  3.34971e-28
      516.000  3.72190e-28
      516.400  3.72190e-28
      516.800  3.72190e-28
      517.200  4.46628e-28
      517.600  5.95504e-28
      518.000  7.07161e-28
      518.400  8.18818e-28
      518.800  1.00491e-27
      519.200  1.19101e-27
      519.600  1.45154e-27
      520.000  1.67485e-27
      520.400  1.78651e-27
      520.800  2.00983e-27
      521.200  2.23314e-27
      521.600  2.34480e-27
      522.000  2.45645e-27
      522.400  2.49367e-27
      522.800  2.41923e-27
      523.200  2.34480e-27
      523.600  2.15870e-27
      524.000  2.04704e-27
      524.400  1.82373e-27
      524.800  1.63764e-27
      525.200  1.48876e-27
      525.600  1.37710e-27
      526.000  1.22823e-27
      526.400  1.04213e-27
      526.800  9.30475e-28
      527.200  9.67694e-28
      527.600  1.00491e-27
      528.000  9.67694e-28
      528.400  1.00491e-27
      528.800  1.07935e-27
      529.200  1.15379e-27
      529.600  1.22823e-27
      530.000  1.26545e-27
      530.400  1.37710e-27
      530.800  1.56320e-27
      531.200  1.86095e-27
      531.600  2.23314e-27
      532.000  2.60533e-27
      532.400  2.94030e-27
      532.800  3.31249e-27
      533.200  3.75912e-27
      533.600  4.09409e-27
      534.000  4.46628e-27
      534.400  4.87569e-27
      534.800  5.47119e-27
      535.200  6.17835e-27
      535.600  6.92273e-27
      536.000  8.18818e-27
      536.400  9.71416e-27
      536.800  1.10540e-26
      537.200  1.22823e-26
      537.600  1.44410e-26
      538.000  1.65252e-26
      538.400  1.80512e-26
      538.800  1.92050e-26
      539.200  2.08426e-26
      539.600  2.36341e-26
      540.000  2.67232e-26
      540.400  3.09662e-26
      540.800  3.53580e-26
      541.200  4.08292e-26
      541.600  4.67098e-26
      542.000  5.28138e-26
      542.400  5.69451e-26
      542.800  5.83222e-26
      543.200  5.77639e-26
      543.600  5.48608e-26
      544.000  4.84964e-26
      544.400  4.14247e-26
      544.800  3.27899e-26
      545.200  2.53461e-26
      545.600  1.86467e-26
      546.000  1.38827e-26
      546.400  9.93747e-27
      546.800  7.03439e-27
      547.200  4.91291e-27
      547.600  3.42415e-27
      548.000  2.38202e-27
      548.400  1.63764e-27
      548.800  1.15379e-27
      549.200  8.56037e-28
      549.600  5.95504e-28
      550.000  4.09409e-28
      550.400  3.34971e-28
      550.800  2.60533e-28
      551.200  1.86095e-28
      551.600  1.86095e-28
      552.000  1.86095e-28
      552.400  2.60533e-28
      552.800  3.34971e-28
      553.200  4.46628e-28
      553.600  5.58285e-28
      554.000  7.07161e-28
      554.400  8.56037e-28
      554.800  1.04213e-27
      555.200  1.15379e-27
      555.600  1.30267e-27
      556.000  1.37710e-27
      556.400  1.45154e-27
      556.800  1.48876e-27
      557.200  1.45154e-27
      557.600  1.41432e-27
      558.000  1.33988e-27
      558.400  1.30267e-27
      558.800  1.30267e-27
      559.200  1.26545e-27
      559.600  1.11657e-27
      560.000  1.07935e-27
      560.400  1.04213e-27
      560.800  9.67694e-28
      561.200  9.67694e-28
      561.600  1.07935e-27
      562.000  1.15379e-27
      562.400  1.19101e-27
      562.800  1.22823e-27
      563.200  1.26545e-27
      563.600  1.41432e-27
      564.000  1.56320e-27
      564.400  1.67485e-27
      564.800  1.89817e-27
      565.200  2.12148e-27
      565.600  2.49367e-27
      566.000  2.86586e-27
      566.400  3.20083e-27
      566.800  3.53580e-27
      567.200  3.87078e-27
      567.600  4.31740e-27
      568.000  4.80125e-27
      568.400  5.17344e-27
      568.800  5.43397e-27
      569.200  5.62007e-27
      569.600  5.95504e-27
      570.000  6.47611e-27
      570.400  6.95995e-27
      570.800  7.55546e-27
      571.200  8.03930e-27
      571.600  8.41149e-27
      572.000  8.89534e-27
      572.400  9.52806e-27
      572.800  1.02724e-26
      573.200  1.14262e-26
      573.600  1.27289e-26
      574.000  1.39943e-26
      574.400  1.52970e-26
      574.800  1.65997e-26
      575.200  1.77535e-26
      575.600  1.82745e-26
      576.000  1.84606e-26
      576.400  1.77162e-26
      576.800  1.66741e-26
      577.200  1.58553e-26
      577.600  1.54459e-26
      578.000  1.49248e-26
      578.400  1.37710e-26
      578.800  1.19101e-26
      579.200  1.01236e-26
      579.600  8.74646e-27
      580.000  7.25771e-27
      580.400  6.06670e-27
      580.800  4.98735e-27
      581.200  4.13131e-27
      581.600  3.46137e-27
      582.000  2.82864e-27
      582.400  2.34480e-27
      582.800  1.93539e-27
      583.200  1.60042e-27
      583.600  1.33988e-27
      584.000  1.11657e-27
      584.400  9.30475e-28
      584.800  7.44380e-28
      585.200  5.95504e-28
      585.600  4.46628e-28
      586.000  4.09409e-28
      586.400  3.72190e-28
      586.800  3.34971e-28
      587.200  2.97752e-28
      587.600  2.97752e-28
      588.000  2.97752e-28
      588.400  3.34971e-28
      588.800  4.46628e-28
      589.200  6.69942e-28
      589.600  9.67694e-28
      590.000  1.22823e-27
      590.400  1.60042e-27
      590.800  2.00983e-27
      591.200  2.53089e-27
      591.600  3.05196e-27
      592.000  3.53580e-27
      592.400  4.09409e-27
      592.800  4.87569e-27
      593.200  5.65729e-27
      593.600  6.40167e-27
      594.000  7.25771e-27
      594.400  8.41149e-27
      594.800  9.75138e-27
      595.200  1.05702e-26
      595.600  1.13518e-26
      596.000  1.23567e-26
      596.400  1.23939e-26
      596.800  1.15007e-26
      597.200  1.12401e-26
      597.600  1.13890e-26
      598.000  1.10168e-26
      598.400  1.04958e-26
      598.800  1.00119e-26
      599.200  9.52806e-27
      599.600  9.00700e-27
      600.000  8.18818e-27
      600.400  7.40658e-27
      600.800  6.92273e-27
      601.200  6.36445e-27
      601.600  5.58285e-27
      602.000  4.87569e-27
      602.400  4.31740e-27
      602.800  3.87078e-27
      603.200  3.49859e-27
      603.600  3.31249e-27
      604.000  3.16362e-27
      604.400  3.16362e-27
      604.800  3.31249e-27
      605.200  3.75912e-27
      605.600  4.28019e-27
      606.000  4.91291e-27
      606.400  5.91782e-27
      606.800  7.03439e-27
      607.200  8.00209e-27
      607.600  9.23031e-27
      608.000  1.10913e-26
      608.400  1.30266e-26
      608.800  1.41060e-26
      609.200  1.44410e-26
      609.600  1.45898e-26
      610.000  1.53714e-26
      610.400  1.68230e-26
      610.800  1.91306e-26
      611.200  2.20709e-26
      611.600  2.65744e-26
      612.000  3.29388e-26
      612.400  4.04571e-26
      612.800  5.00968e-26
      613.200  6.34584e-26
      613.600  7.94998e-26
      614.000  9.15960e-26
      614.400  1.03022e-25
      614.800  1.12401e-25
      615.200  1.16830e-25
      615.600  1.21632e-25
      616.000  1.32090e-25
      616.400  1.38827e-25
      616.800  1.44149e-25
      617.200  1.60004e-25
      617.600  1.89482e-25
      618.000  2.20188e-25
      618.400  2.44640e-25
      618.800  2.57853e-25
      619.200  2.65446e-25
      619.600  2.64404e-25
      620.000  2.54317e-25
      620.400  2.36452e-25
      620.800  2.16950e-25
      621.200  2.06305e-25
      621.600  1.93167e-25
      622.000  1.70202e-25
      622.400  1.45675e-25
      622.800  1.26842e-25
      623.200  1.08456e-25
      623.600  8.98094e-26
      624.000  7.22049e-26
      624.400  5.82477e-26
      624.800  4.74542e-26
      625.200  3.93777e-26
      625.600  3.19339e-26
      626.000  2.51973e-26
      626.400  2.02099e-26
      626.800  1.67113e-26
      627.200  1.42921e-26
      627.600  1.22451e-26
      628.000  9.60250e-27
      628.400  7.36936e-27
      628.800  5.99226e-27
      629.200  5.13622e-27
      629.600  4.20575e-27
      630.000  3.42415e-27
      630.400  2.71699e-27
      630.800  2.15870e-27
      631.200  1.89817e-27
      631.600  1.67485e-27
      632.000  1.45154e-27
      632.400  1.26545e-27
      632.800  1.11657e-27
      633.200  1.11657e-27
      633.600  1.19101e-27
      634.000  1.26545e-27
      634.400  1.33988e-27
      634.800  1.37710e-27
      635.200  1.52598e-27
      635.600  1.74929e-27
      636.000  2.00983e-27
      636.400  2.27036e-27
      636.800  2.53089e-27
      637.200  2.71699e-27
      637.600  2.79142e-27
      638.000  3.05196e-27
      638.400  3.61024e-27
      638.800  4.20575e-27
      639.200  4.65237e-27
      639.600  4.95013e-27
      640.000  5.47119e-27
      640.400  5.99226e-27
      640.800  6.88552e-27
      641.200  8.15096e-27
      641.600  8.89534e-27
      642.000  9.67694e-27
      642.400  1.03841e-26
      642.800  1.05330e-26
      643.200  1.02352e-26
      643.600  9.78860e-27
      644.000  9.04422e-27
      644.400  8.33706e-27
      644.800  8.15096e-27
      645.200  8.22540e-27
      645.600  8.41149e-27
      646.000  8.70925e-27
      646.400  8.63481e-27
      646.800  8.18818e-27
      647.200  7.48102e-27
      647.600  7.48102e-27
      648.000  8.67203e-27
      648.400  1.02724e-26
      648.800  1.15379e-26
      649.200  1.26172e-26
      649.600  1.34733e-26
      650.000  1.41060e-26
      650.400  1.45898e-26
      650.800  1.49620e-26
      651.200  1.48132e-26
      651.600  1.44410e-26
      652.000  1.42177e-26
      652.400  1.46271e-26
      652.800  1.53342e-26
      653.200  1.66741e-26
      653.600  1.82001e-26
      654.000  1.98749e-26
      654.400  2.15870e-26
      654.800  2.24803e-26
      655.200  2.34108e-26
      655.600  2.56811e-26
      656.000  3.09290e-26
      656.400  3.23061e-26
      656.800  2.99613e-26
      657.200  2.84353e-26
      657.600  2.90680e-26
      658.000  3.05940e-26
      658.400  3.16362e-26
      658.800  3.25666e-26
      659.200  3.47625e-26
      659.600  3.52092e-26
      660.000  3.45765e-26
      660.400  3.45392e-26
      660.800  3.53580e-26
      661.200  3.65863e-26
      661.600  3.85961e-26
      662.000  4.11642e-26
      662.400  4.44395e-26
      662.800  4.70820e-26
      663.200  4.89430e-26
      663.600  4.84219e-26
      664.000  4.91663e-26
      664.400  5.00223e-26
      664.800  4.97246e-26
      665.200  5.19577e-26
      665.600  5.74289e-26
      666.000  6.39422e-26
      666.400  6.74408e-26
      666.800  6.67337e-26
      667.200  6.46494e-26
      667.600  6.44633e-26
      668.000  6.29746e-26
      668.400  5.99598e-26
      668.800  5.79128e-26
      669.200  5.48608e-26
      669.600  5.05434e-26
      670.000  4.57049e-26
      670.400  4.08665e-26
      670.800  3.67724e-26
      671.200  3.36460e-26
      671.600  2.94402e-26
      672.000  2.44529e-26
      672.400  2.05821e-26
      672.800  1.71207e-26
      673.200  1.46643e-26
      673.600  1.26917e-26
      674.000  1.09796e-26
      674.400  9.63972e-27
      674.800  7.81599e-27
      675.200  5.73173e-27
      675.600  4.31740e-27
      676.000  3.53580e-27
      676.400  3.05196e-27
      676.800  2.49367e-27
      677.200  1.97261e-27
      677.600  1.71207e-27
      678.000  1.63764e-27
      678.400  1.78651e-27
      678.800  2.41923e-27
      679.200  3.75912e-27
      679.600  5.62007e-27
      680.000  7.55546e-27
      680.400  9.00700e-27
      680.800  9.90025e-27
      681.200  1.09052e-26
      681.600  1.33616e-26
      682.000  1.78279e-26
      682.400  2.21453e-26
      682.800  2.34480e-26
      683.200  2.17359e-26
      683.600  2.05821e-26
      684.000  2.00238e-26
      684.400  1.79396e-26
      684.800  1.63391e-26
      685.200  1.64136e-26
      685.600  1.54459e-26
      686.000  1.44410e-26
      686.400  1.27289e-26
      686.800  1.48876e-26
      687.200  1.41432e-26
      687.600  9.41641e-27
      688.000  8.96978e-27
      688.400  1.03841e-26
      688.800  1.05330e-26
      689.200  8.96978e-27
      689.600  6.84830e-27
      690.000  5.99226e-27
      690.400  6.40167e-27
      690.800  6.73664e-27
      691.200  6.81108e-27
      691.600  6.51332e-27
      692.000  6.29001e-27
      692.400  6.77386e-27
      692.800  7.36936e-27
      693.200  7.96487e-27
      693.600  8.74646e-27
      694.000  9.78860e-27
      694.400  1.08679e-26
      694.800  1.23195e-26
      695.200  1.52226e-26
      695.600  1.92422e-26
      696.000  2.35596e-26
      696.400  2.86586e-26
      696.800  3.54325e-26
      697.200  4.04198e-26
      697.600  4.26158e-26
      698.000  4.46628e-26
      698.400  4.91291e-26
      698.800  5.56796e-26
      699.200  6.61382e-26
      699.600  7.99464e-26
      700.000  9.07771e-26
      700.400  9.78860e-26
      700.800  1.04064e-25
      701.200  1.14448e-25
      701.600  1.24237e-25
      702.000  1.32276e-25
      702.400  1.37264e-25
      702.800  1.29894e-25
      703.200  1.21594e-25
      703.600  1.18877e-25
      704.000  1.23418e-25
      704.400  1.29038e-25
      704.800  1.20590e-25
      705.200  9.98586e-26
      705.600  8.31845e-26
      706.000  7.78621e-26
      706.400  7.83832e-26
      706.800  7.77505e-26
      707.200  7.21676e-26
      707.600  6.46866e-26
      708.000  5.74289e-26
      708.400  5.18833e-26
      708.800  4.83847e-26
      709.200  4.80497e-26
      709.600  4.77892e-26
      710.000  4.54072e-26
      710.400  3.95266e-26
      710.800  3.33110e-26
      711.200  3.00729e-26
      711.600  2.97380e-26
      712.000  3.19339e-26
      712.400  3.41298e-26
      712.800  3.42787e-26
      713.200  3.11523e-26
      713.600  2.85842e-26
      714.000  2.90680e-26
      714.400  3.23061e-26
      714.800  3.87078e-26
      715.200  4.84964e-26
      715.600  6.39795e-26
      716.000  8.54920e-26
      716.400  1.15118e-25
      716.800  1.46606e-25
      717.200  1.86207e-25
      717.600  2.24133e-25
      718.000  2.59193e-25
      718.400  2.98571e-25
      718.800  3.22800e-25
      719.200  3.60540e-25
      719.600  4.13094e-25
      720.000  4.68699e-25
      720.400  4.98139e-25
      720.800  5.08821e-25
      721.200  5.31822e-25
      721.600  5.66138e-25
      722.000  5.83929e-25
      722.400  5.87874e-25
      722.800  6.12960e-25
      723.200  6.67002e-25
      723.600  7.26329e-25
      724.000  8.08062e-25
      724.400  9.11903e-25
      724.800  1.10243e-24
      725.200  1.32425e-24
      725.600  1.46792e-24
      726.000  1.47618e-24
      726.400  1.42526e-24
      726.800  1.52509e-24
      727.200  1.72972e-24
      727.600  1.75000e-24
      728.000  1.55843e-24
      728.400  1.32042e-24
      728.800  1.17817e-24
      729.200  1.12085e-24
      729.600  1.07768e-24
      730.000  1.02568e-24
      730.400  9.24520e-25
      730.800  7.99725e-25
      731.200  6.89519e-25
      731.600  6.19920e-25
      732.000  5.77564e-25
      732.400  5.58769e-25
      732.800  5.34577e-25
      733.200  4.87829e-25
      733.600  4.24408e-25
      734.000  3.79224e-25
      734.400  3.40070e-25
      734.800  3.03260e-25
      735.200  2.84800e-25
      735.600  2.57034e-25
      736.000  2.15349e-25
      736.400  1.97075e-25
      736.800  1.93539e-25
      737.200  1.72175e-25
      737.600  1.45750e-25
      738.000  1.27661e-25
      738.400  1.10354e-25
      738.800  9.30475e-26
      739.200  7.77133e-26
      739.600  6.40539e-26
      740.000  5.30743e-26
      740.400  4.48489e-26
      740.800  3.62885e-26
      741.200  2.78026e-26
      741.600  2.33363e-26
      742.000  1.94655e-26
      742.400  1.52970e-26
      742.800  1.27661e-26
      743.200  1.04585e-26
      743.600  7.89043e-27
      744.000  6.32723e-27
      744.400  5.62007e-27
      744.800  5.24788e-27
      745.200  5.06178e-27
      745.600  4.91291e-27
      746.000  4.65237e-27
      746.400  4.28019e-27
      746.800  4.80125e-27
      747.200  5.17344e-27
      747.600  4.46628e-27
      748.000  4.61516e-27
      748.400  4.80125e-27
      748.800  4.16853e-27
      749.200  4.05687e-27
      749.600  4.54072e-27
      750.000  5.39675e-27
      750.400  4.95013e-27
      750.800  3.94521e-27
      751.200  3.42415e-27
      751.600  3.27527e-27
      752.000  3.94521e-27
      752.400  4.91291e-27
      752.800  4.31740e-27
      753.200  2.97752e-27
      753.600  2.30758e-27
      754.000  2.60533e-27
      754.400  3.38693e-27
      754.800  4.01965e-27
      755.200  4.35462e-27
      755.600  4.76403e-27
      756.000  5.50841e-27
      756.400  6.62498e-27
      756.800  8.00209e-27
      757.200  9.30475e-27
      757.600  1.05702e-26
      758.000  1.23939e-26
      758.400  1.34733e-26
      758.800  1.45898e-26
      759.200  1.75674e-26
      759.600  2.57183e-26
      760.000  2.91797e-26
      760.400  3.26038e-26
      760.800  3.47625e-26
      761.200  3.23805e-26
      761.600  3.23805e-26
      762.000  4.21319e-26
      762.400  4.68215e-26
      762.800  4.90546e-26
      763.200  5.06178e-26
      763.600  5.03945e-26
      764.000  5.22927e-26
      764.400  5.67218e-26
      764.800  5.78755e-26
      765.200  5.71312e-26
      765.600  5.47864e-26
      766.000  5.27765e-26
      766.400  5.69823e-26
      766.800  6.41656e-26
      767.200  6.69198e-26
      767.600  5.91038e-26
      768.000  5.26277e-26
      768.400  5.26649e-26
      768.800  5.53819e-26
      769.200  5.62007e-26
      769.600  5.48236e-26
      770.000  5.35209e-26
      770.400  5.57168e-26
      770.800  5.91782e-26
      771.200  6.05553e-26
      771.600  5.96993e-26
      772.000  6.13369e-26
      772.400  6.91529e-26
      772.800  8.41894e-26
      773.200  9.84070e-26
      773.600  1.02092e-25
      774.000  9.65461e-26
      774.400  8.98839e-26
      774.800  8.97722e-26
      775.200  9.50201e-26
      775.600  1.04027e-25
      776.000  1.11322e-25
      776.400  1.15639e-25
      776.800  1.17835e-25
      777.200  1.22376e-25
      777.600  1.28741e-25
      778.000  1.37822e-25
      778.400  1.46531e-25
      778.800  1.54459e-25
      779.200  1.64173e-25
      779.600  1.84085e-25
      780.000  2.06752e-25
      780.400  2.35745e-25
      780.800  2.68349e-25
      781.200  2.82939e-25
      781.600  2.88819e-25
      782.000  2.92169e-25
      782.400  2.93956e-25
      782.800  2.99241e-25
      783.200  3.18371e-25
      783.600  3.51980e-25
      784.000  3.61694e-25
      784.400  3.12826e-25
      784.800  2.60347e-25
      785.200  2.43152e-25
      785.600  2.55025e-25
      786.000  2.67642e-25
      786.400  2.67232e-25
      786.800  2.59119e-25
      787.200  2.47432e-25
      787.600  2.37867e-25
      788.000  2.27743e-25
      788.400  2.18997e-25
      788.800  2.13451e-25
      789.200  2.09543e-25
      789.600  2.07980e-25
      790.000  2.04667e-25
      790.400  2.05896e-25
      790.800  2.13637e-25
      791.200  2.21639e-25
      791.600  2.38537e-25
      792.000  2.60645e-25
      792.400  2.85246e-25
      792.800  3.07503e-25
      793.200  3.15543e-25
      793.600  3.05419e-25
      794.000  3.06498e-25
      794.400  3.31770e-25
      794.800  3.54511e-25
      795.200  3.67017e-25
      795.600  3.69882e-25
      796.000  3.64411e-25
      796.400  3.61880e-25
      796.800  3.77698e-25
      797.200  3.94261e-25
      797.600  3.96643e-25
      798.000  3.92995e-25
      798.400  3.85366e-25
      798.800  3.81495e-25
      799.200  3.78406e-25
      799.600  3.54995e-25
      800.000  3.33854e-25
      800.400  3.28830e-25
      800.800  3.08769e-25
      801.200  2.93100e-25
      801.600  3.05568e-25
      802.000  3.05866e-25
      802.400  2.83050e-25
      802.800  2.64404e-25
      803.200  2.51638e-25
      803.600  2.41551e-25
      804.000  2.40360e-25
      804.400  2.37234e-25
      804.800  2.20374e-25
      805.200  2.09431e-25
      805.600  2.03067e-25
      806.000  1.92683e-25
      806.400  1.78837e-25
      806.800  1.63391e-25
      807.200  1.50960e-25
      807.600  1.46233e-25
      808.000  1.42958e-25
      808.400  1.36929e-25
      808.800  1.38455e-25
      809.200  1.46122e-25
      809.600  1.39460e-25
      810.000  1.28927e-25
      810.400  1.25130e-25
      810.800  1.23679e-25
      811.200  1.15863e-25
      811.600  1.01868e-25
      812.000  9.17448e-26
      812.400  8.44499e-26
      812.800  8.10630e-26
      813.200  7.76016e-26
      813.600  6.85202e-26
      814.000  6.24535e-26
      814.400  5.94760e-26
      814.800  5.94760e-26
      815.200  5.50469e-26
      815.600  4.88313e-26
      816.000  4.68587e-26
      816.400  4.09409e-26
      816.800  3.71446e-26
      817.200  3.38693e-26
      817.600  3.53580e-26
      818.000  3.02590e-26
      818.400  2.74676e-26
      818.800  2.48251e-26
      819.200  2.54950e-26
      819.600  2.42668e-26
      820.000  1.99494e-26
      820.400  1.77535e-26
      820.800  1.65252e-26
      821.200  1.55575e-26
      821.600  1.45898e-26
      822.000  1.46271e-26
      822.400  1.57809e-26
      822.800  1.43293e-26
      823.200  9.37919e-27
      823.600  8.41149e-27
      824.000  1.00119e-26
      824.400  9.37919e-27
      824.800  9.67694e-27
      825.200  1.07935e-26
      825.600  1.20217e-26
      826.000  1.09796e-26
      826.400  9.19309e-27
      826.800  8.29984e-27
      827.200  9.19309e-27
      827.600  8.70925e-27
      828.000  7.33214e-27
      828.400  6.88552e-27
      828.800  7.10883e-27
      829.200  6.62498e-27
      829.600  5.84338e-27
      830.000  5.13622e-27
      830.400  4.16853e-27
      830.800  3.46137e-27
      831.200  3.49859e-27
      831.600  4.20575e-27
      832.000  4.91291e-27
      832.400  6.06670e-27
      832.800  8.67203e-27
      833.200  1.17984e-26
      833.600  1.65625e-26
      834.000  2.18103e-26
      834.400  3.07801e-26
      834.800  4.58910e-26
      835.200  6.29373e-26
      835.600  8.17329e-26
      836.000  1.00826e-25
      836.400  1.18208e-25
      836.800  1.36147e-25
      837.200  1.54794e-25
      837.600  1.74297e-25
      838.000  2.05412e-25
      838.400  2.55918e-25
      838.800  2.81450e-25
      839.200  2.60868e-25
      839.600  2.33065e-25
      840.000  2.23984e-25
      840.400  2.43375e-25
      840.800  2.83758e-25
      841.200  3.36162e-25
      841.600  3.58456e-25
      842.000  3.31100e-25
      842.400  2.57258e-25
      842.800  1.88179e-25
      843.200  1.74297e-25
      843.600  1.91715e-25
      844.000  2.20225e-25
      844.400  2.28115e-25
      844.800  1.99680e-25
      845.200  1.63764e-25
      845.600  1.36594e-25
      846.000  1.19845e-25
      846.400  1.14486e-25
      846.800  1.15565e-25
      847.200  1.17984e-25
      847.600  1.20180e-25
      848.000  1.15342e-25
      848.400  1.10503e-25
      848.800  9.84443e-26
      849.200  8.84696e-26
      849.600  9.07027e-26
      850.000  9.79976e-26
      850.400  1.07042e-25
      850.800  1.11210e-25
      851.200  1.21297e-25
      851.600  1.28592e-25
      852.000  1.38082e-25
      852.400  1.55799e-25
      852.800  1.72994e-25
      853.200  2.01876e-25
      853.600  2.35224e-25
      854.000  2.63213e-25
      854.400  2.89973e-25
      854.800  3.25555e-25
      855.200  3.28718e-25
      855.600  3.35232e-25
      856.000  3.74646e-25
      856.400  4.25674e-25
      856.800  4.78822e-25
      857.200  5.53484e-25
      857.600  6.26656e-25
      858.000  6.82820e-25
      858.400  7.24207e-25
      858.800  7.38537e-25
      859.200  7.63994e-25
      859.600  8.27155e-25
      860.000  9.35202e-25
      860.400  1.09435e-24
      860.800  1.23787e-24
      861.200  1.37070e-24
      861.600  1.53595e-24
      862.000  1.72101e-24
      862.400  1.79157e-24
      862.800  1.72439e-24
      863.200  1.68922e-24
      863.600  1.75167e-24
      864.000  1.77010e-24
      864.400  1.69168e-24
      864.800  1.63786e-24
      865.200  1.61936e-24
      865.600  1.54109e-24
      866.000  1.41961e-24
      866.400  1.34409e-24
      866.800  1.33300e-24
      867.200  1.23984e-24
      867.600  1.08240e-24
      868.000  9.22250e-25
      868.400  8.31063e-25
      868.800  7.72183e-25
      869.200  7.22495e-25
      869.600  6.97745e-25
      870.000  6.62796e-25
      870.400  6.30453e-25
      870.800  5.89102e-25
      871.200  5.37033e-25
      871.600  4.88127e-25
      872.000  4.47335e-25
      872.400  4.25897e-25
      872.800  4.11382e-25
      873.200  3.83988e-25
      873.600  3.70925e-25
      874.000  3.85998e-25
      874.400  3.98653e-25
      874.800  3.84844e-25
      875.200  3.72972e-25
      875.600  3.86147e-25
      876.000  4.00700e-25
      876.400  4.06171e-25
      876.800  4.16406e-25
      877.200  4.34643e-25
      877.600  4.58352e-25
      878.000  4.87569e-25
      878.400  5.00744e-25
      878.800  5.34279e-25
      879.200  6.21818e-25
      879.600  8.14575e-25
      880.000  1.20426e-24
      880.400  1.70891e-24
      880.800  2.15840e-24
      881.200  2.90148e-24
      881.600  4.50618e-24
      882.000  6.72879e-24
      882.400  8.46628e-24
      882.800  9.57477e-24
      883.200  1.06346e-23
      883.600  1.13006e-23
      884.000  1.05785e-23
      884.400  8.81986e-24
      884.800  7.09993e-24
      885.200  6.41522e-24
      885.600  6.63909e-24
      886.000  7.26865e-24
      886.400  8.95024e-24
      886.800  1.26738e-23
      887.200  1.63936e-23
      887.600  1.63480e-23
      888.000  1.42722e-23
      888.400  1.19897e-23
      888.800  1.01314e-23
      889.200  9.59096e-24
      889.600  9.31126e-24
      890.000  8.97067e-24
      890.400  9.39839e-24
      890.800  9.67694e-24
      891.200  9.68360e-24
      891.600  9.18133e-24
      892.000  8.39627e-24
      892.400  8.43066e-24
      892.800  8.67780e-24
      893.200  8.88939e-24
      893.600  9.86951e-24
      894.000  1.07375e-23
      894.400  1.05517e-23
      894.800  1.01137e-23
      895.200  9.99658e-24
      895.600  1.02746e-23
      896.000  9.99170e-24
      896.400  8.42054e-24
      896.800  6.64542e-24
      897.200  5.52963e-24
      897.600  5.12796e-24
      898.000  5.18118e-24
      898.400  5.39530e-24
      898.800  5.67534e-24
      899.200  5.51824e-24
      899.600  5.17456e-24
      900.000  4.73869e-24
      900.400  4.15952e-24
      900.800  3.62491e-24
      901.200  3.19648e-24
      901.600  2.82663e-24
      902.000  2.49408e-24
      902.400  2.28022e-24
      902.800  2.07005e-24
      903.200  1.76809e-24
      903.600  1.45154e-24
      904.000  1.23738e-24
      904.400  1.13927e-24
      904.800  1.06394e-24
      905.200  9.09781e-25
      905.600  7.70359e-25
      906.000  6.98080e-25
      906.400  6.28629e-25
      906.800  5.63458e-25
      907.200  5.01861e-25
      907.600  4.56417e-25
      908.000  4.19868e-25
      908.400  3.88566e-25
      908.800  3.60131e-25
      909.200  3.20530e-25
      909.600  2.92765e-25
      910.000  2.83088e-25
      910.400  2.87182e-25
      910.800  3.02553e-25
      911.200  3.29314e-25
      911.600  3.51720e-25
      912.000  3.57116e-25
      912.400  3.74349e-25
      912.800  4.00253e-25
      913.200  4.04719e-25
      913.600  3.75614e-25
      914.000  3.38060e-25
      914.400  3.22317e-25
      914.800  3.15208e-25
      915.200  3.07243e-25
      915.600  2.94812e-25
      916.000  3.00357e-25
      916.400  3.02814e-25
      916.800  2.82120e-25
      917.200  2.52717e-25
      917.600  2.19741e-25
      918.000  1.97112e-25
      918.400  1.88514e-25
      918.800  1.86244e-25
      919.200  1.83452e-25
      919.600  1.79023e-25
      920.000  1.72398e-25
      920.400  1.60600e-25
      920.800  1.47759e-25
      921.200  1.37599e-25
      921.600  1.27959e-25
      922.000  1.18356e-25
      922.400  1.12141e-25
      922.800  1.06893e-25
      923.200  9.99702e-26
      923.600  9.27125e-26
      924.000  8.53804e-26
      924.400  7.76388e-26
      924.800  6.95995e-26
      925.200  6.49472e-26
      925.600  6.54682e-26
      926.000  6.74780e-26
      926.400  6.64731e-26
      926.800  6.17835e-26
      927.200  5.60518e-26
      927.600  5.15855e-26
      928.000  4.65982e-26
      928.400  4.04198e-26
      928.800  3.50231e-26
      929.200  3.18967e-26
      929.600  3.05568e-26
      930.000  2.95147e-26
      930.400  2.75793e-26
      930.800  2.48251e-26
      931.200  2.22570e-26
      931.600  2.09543e-26
      932.000  2.03960e-26
      932.400  2.01727e-26
      932.800  1.95028e-26
      933.200  1.82745e-26
      933.600  1.53342e-26
      934.000  1.14635e-26
      934.400  8.56037e-27
      934.800  7.18327e-27
      935.200  6.62498e-27
      935.600  6.55054e-27
      936.000  6.66220e-27
      936.400  6.62498e-27
      936.800  6.47611e-27
      937.200  6.06670e-27
      937.600  5.58285e-27
      938.000  5.21066e-27
      938.400  4.65237e-27
      938.800  4.20575e-27
      939.200  4.42906e-27
      939.600  5.21066e-27
      940.000  6.14114e-27
      940.400  7.07161e-27
      940.800  8.18818e-27
      941.200  9.63972e-27
      941.600  1.17240e-26
      942.000  1.46271e-26
      942.400  1.80140e-26
      942.800  2.19964e-26
      943.200  2.62022e-26
      943.600  2.91053e-26
      944.000  3.07801e-26
      944.400  3.25294e-26
      944.800  3.61024e-26
      945.200  4.10153e-26
      945.600  4.54444e-26
      946.000  5.11761e-26
      946.400  6.18952e-26
      946.800  7.96487e-26
      947.200  1.02650e-25
      947.600  1.20962e-25
      948.000  1.21557e-25
      948.400  1.04548e-25
      948.800  8.54548e-26
      949.200  7.36936e-26
      949.600  6.87435e-26
      950.000  6.99717e-26
      950.400  8.03186e-26
      950.800  1.02911e-25
      951.200  1.31644e-25
      951.600  1.51407e-25
      952.000  1.45154e-25
      952.400  1.20106e-25
      952.800  9.86676e-26
      953.200  8.88045e-26
      953.600  8.64970e-26
      954.000  8.63481e-26
      954.400  8.88418e-26
      954.800  9.50201e-26
      955.200  1.04325e-25
      955.600  1.11806e-25
      956.000  1.20366e-25
      956.400  1.32611e-25
      956.800  1.46941e-25
      957.200  1.63205e-25
      957.600  1.70277e-25
      958.000  1.64620e-25
      958.400  1.61717e-25
      958.800  1.73627e-25
      959.200  1.88812e-25
      959.600  2.09729e-25
      960.000  2.27929e-25
      960.400  2.52419e-25
      960.800  2.85395e-25
      961.200  3.21051e-25
      961.600  3.55628e-25
      962.000  4.02263e-25
      962.400  4.67880e-25
      962.800  5.52442e-25
      963.200  6.51854e-25
      963.600  7.39653e-25
      964.000  7.71848e-25
      964.400  7.89601e-25
      964.800  8.39326e-25
      965.200  9.44990e-25
      965.600  1.04131e-24
      966.000  1.11497e-24
      966.400  1.15048e-24
      966.800  1.16142e-24
      967.200  1.12744e-24
      967.600  1.08278e-24
      968.000  1.05825e-24
      968.400  1.06897e-24
      968.800  1.14724e-24
      969.200  1.24769e-24
      969.600  1.30185e-24
      970.000  1.39329e-24
      970.400  1.69250e-24
      970.800  2.19168e-24
      971.200  2.28819e-24
      971.600  1.88027e-24
      972.000  1.53703e-24
      972.400  1.34543e-24
      972.800  1.24594e-24
      973.200  1.27058e-24
      973.600  1.36091e-24
      974.000  1.43528e-24
      974.400  1.46237e-24
      974.800  1.38034e-24
      975.200  1.27095e-24
      975.600  1.15785e-24
      976.000  1.07738e-24
      976.400  1.07503e-24
      976.800  1.08683e-24
      977.200  1.12587e-24
      977.600  1.20709e-24
      978.000  1.22581e-24
      978.400  1.14538e-24
      978.800  1.15007e-24
      979.200  1.21103e-24
      979.600  1.24163e-24
      980.000  1.26072e-24
      980.400  1.36229e-24
      980.800  1.58560e-24
      981.200  1.70597e-24
      981.600  1.85377e-24
      982.000  2.13559e-24
      982.400  2.33274e-24
      982.800  2.60447e-24
      983.200  3.18598e-24
      983.600  3.47547e-24
      984.000  3.35202e-24
      984.400  3.40736e-24
      984.800  3.27847e-24
      985.200  2.85794e-24
      985.600  2.80620e-24
      986.000  2.89110e-24
      986.400  2.93401e-24
      986.800  3.14891e-24
      987.200  3.47912e-24
      987.600  4.26295e-24
      988.000  5.40584e-24
      988.400  6.29239e-24
      988.800  6.59558e-24
      989.200  5.93517e-24
      989.600  4.92932e-24
      990.000  4.57809e-24
      990.400  4.65937e-24
      990.800  4.52870e-24
      991.200  4.29619e-24
      991.600  4.21155e-24
      992.000  4.03439e-24
      992.400  3.69209e-24
      992.800  3.44637e-24
      993.200  3.62212e-24
      993.600  3.77244e-24
      994.000  3.63566e-24
      994.400  3.65960e-24
      994.800  3.68137e-24
      995.200  3.85034e-24
      995.600  4.32317e-24
      996.000  4.80125e-24
      996.400  4.87647e-24
      996.800  4.08211e-24
      997.200  3.16142e-24
      997.600  2.84003e-24
      998.000  2.70787e-24
      998.400  2.99297e-24
      998.800  3.86549e-24
      999.200  3.82005e-24
      999.600  2.95217e-24
      1000.00  2.51906e-24